# Period(s)  Rhoap(Ohm,m)  Phase(deg)  Z real  Z imag
0.0010 50.1872 45.2495 0.4432 0.4471
0.0018 48.5485 45.4900 0.3214 0.3270
0.0033 46.5560 43.7576 0.2402 0.2300
0.0061 48.2326 40.6055 0.1903 0.1631
0.0111 54.9704 38.4522 0.1552 0.1232
0.0202 65.4387 39.3911 0.1237 0.1016
0.0367 72.4555 44.0990 0.0896 0.0868
0.0670 66.6613 49.2606 0.0578 0.0672
0.1222 54.2331 49.8063 0.0382 0.0452
0.2228 46.8278 44.6464 0.0290 0.0286
0.4062 48.5330 36.9333 0.0246 0.0185
0.7406 59.6713 30.4591 0.0217 0.0128
1.3503 80.1869 26.8110 0.0193 0.0098
2.4621 109.9102 25.7495 0.0169 0.0082
4.4893 147.8885 26.4938 0.0144 0.0072
8.1855 191.9066 28.3088 0.0120 0.0065
14.9250 238.6799 30.6292 0.0097 0.0057
27.2134 284.6554 33.0590 0.0076 0.0050
49.6195 326.9158 35.3481 0.0059 0.0042
90.4736 363.6883 37.3636 0.0045 0.0034
164.9648 394.3431 39.0568 0.0034 0.0027
300.7883 419.0853 40.4322 0.0025 0.0022
548.4417 438.5859 41.5222 0.0019 0.0017
1000.0000 453.6925 42.3709 0.0014 0.0013
